BlockNumber, TrialNumber, nrYellowDots, nrBlueDots, Response, ReactionTime, Congruency
1,51,6,10,Blue,5.340576E-05,notApplicable
1,50,8,9,Blue,7.629395E-06,notApplicable
1,49,19,15,Yellow,1.525879E-05,notApplicable
1,48,22,15,Yellow,0,notApplicable
1,47,5,7,Blue,0,notApplicable
1,46,19,12,Yellow,0,notApplicable
1,45,13,18,Blue,0,notApplicable
1,44,8,10,Blue,0,notApplicable
1,43,13,13,Yellow,0,notApplicable
1,42,5,8,Blue,0,notApplicable
1,41,8,11,Blue,0,notApplicable
1,40,18,13,Yellow,7.629395E-06,notApplicable
1,39,13,22,Blue,0,notApplicable
1,39,18,13,noResponse,0,notApplicable
1,38,18,11,Yellow,0,notApplicable
1,37,17,11,Yellow,0,notApplicable
1,36,13,8,Yellow,1.525879E-05,notApplicable
1,35,8,12,Blue,0,notApplicable
1,34,17,12,Yellow,0,notApplicable
1,34,6,4,noResponse,0,notApplicable
1,33,12,14,Yellow,0,notApplicable
1,32,7,14,Blue,0,notApplicable
1,31,16,10,Yellow,0,notApplicable
1,30,5,6,Yellow,0,notApplicable
1,29,11,7,Yellow,0,notApplicable
1,28,13,21,Blue,0,notApplicable
1,27,6,5,Yellow,1.525879E-05,notApplicable
1,26,12,20,Blue,0,notApplicable
1,25,3,5,Blue,0,notApplicable
1,24,9,6,Yellow,0,notApplicable
1,23,12,7,Yellow,0,notApplicable
1,22,5,7,Blue,0,notApplicable
1,21,13,10,Yellow,0,notApplicable
1,20,14,11,Yellow,0,notApplicable
1,19,5,8,Blue,0,notApplicable
1,18,3,5,Yellow,0,notApplicable
1,18,5,6,noResponse,0,notApplicable
1,18,12,7,noResponse,0,notApplicable
1,18,15,17,noResponse,0,notApplicable
1,17,14,7,Yellow,0,notApplicable
1,16,16,11,Yellow,1.525879E-05,notApplicable
1,15,6,4,Yellow,0,notApplicable
1,14,7,9,Blue,0,notApplicable
1,14,15,13,noResponse,0,notApplicable
1,13,9,9,Yellow,0,notApplicable
1,12,16,19,Blue,0,notApplicable
1,11,10,14,Blue,0,notApplicable
1,10,16,14,Yellow,0,notApplicable
1,9,7,9,Blue,0,notApplicable
1,8,19,8,Yellow,3.051758E-05,notApplicable
1,7,9,8,Blue,0,notApplicable
1,6,9,5,Yellow,0,notApplicable
1,5,15,7,Yellow,0,notApplicable
1,4,3,5,Blue,0,notApplicable
1,3,15,9,Yellow,0,notApplicable
1,2,14,11,Yellow,0,notApplicable
1,1,19,16,Yellow,0,notApplicable
1,0,5,8,Blue,0,notApplicable
1,-1,8,12,Blue,0,notApplicable
2,51,11,10,Yellow,0.001220703,notApplicable
2,51,7,11,noResponse,0,notApplicable
2,50,7,10,Blue,0.0006408691,notApplicable
2,49,12,13,Yellow,0.0008544922,notApplicable
2,48,11,8,Yellow,0.0006408691,notApplicable
2,47,16,20,Blue,0.000793457,notApplicable
2,46,18,13,Yellow,0.0006103516,notApplicable
2,45,13,9,Yellow,0.0006103516,notApplicable
2,44,8,6,Yellow,0.0006103516,notApplicable
2,43,18,8,Yellow,0.0004882813,notApplicable
2,42,5,6,Blue,0.000793457,notApplicable
2,41,7,11,Yellow,0.0006408691,notApplicable
2,40,13,15,Blue,0.0005493164,notApplicable
2,39,11,11,Yellow,0.0007019043,notApplicable
2,39,12,9,noResponse,0,notApplicable
2,38,10,8,Yellow,0.0007019043,notApplicable
2,37,11,14,Yellow,0.0006408691,notApplicable
2,36,5,4,Yellow,0.001220703,notApplicable
2,35,16,14,Yellow,0.0009765625,notApplicable
2,34,4,7,Blue,0.0007629395,notApplicable
2,33,11,15,Blue,0.0006408691,notApplicable
2,32,14,11,Yellow,0.000579834,notApplicable
2,31,15,12,Yellow,0.0007629395,notApplicable
2,30,6,9,Blue,0.000579834,notApplicable
2,29,4,8,Blue,0.0007324219,notApplicable
2,28,11,15,Blue,0.0005493164,notApplicable
2,27,5,6,Blue,0.0005493164,notApplicable
2,26,13,15,Yellow,0.0006103516,notApplicable
2,25,15,7,Yellow,0.0005187988,notApplicable
2,24,11,15,Blue,0.000579834,notApplicable
2,23,8,7,Yellow,0.0007019043,notApplicable
2,22,3,5,Blue,0.0006408691,notApplicable
2,21,13,5,Yellow,0.0007019043,notApplicable
2,20,14,7,Yellow,0.0009460449,notApplicable
2,19,12,9,Yellow,0.0007629395,notApplicable
2,18,8,14,Blue,0.0009765625,notApplicable
2,17,18,13,Yellow,0.001037598,notApplicable
2,16,13,18,Blue,0.0006103516,notApplicable
2,15,10,10,Yellow,0.0008850098,notApplicable
2,14,8,6,Yellow,0.00112915,notApplicable
2,13,10,10,Blue,0.0008544922,notApplicable
2,12,7,9,Yellow,0.0007019043,notApplicable
2,11,7,6,Blue,0.0007019043,notApplicable
2,10,17,14,Yellow,0.0005187988,notApplicable
2,9,9,6,Yellow,0.0007019043,notApplicable
2,8,11,10,Blue,0.0005493164,notApplicable
2,7,9,13,Blue,0.0007019043,notApplicable
2,6,10,6,Yellow,0.0007019043,notApplicable
2,5,6,9,Blue,0.0007324219,notApplicable
2,4,16,15,Yellow,0.0007019043,notApplicable
2,3,12,20,Blue,0.0006408691,notApplicable
2,2,11,17,Blue,0.000793457,notApplicable
2,1,6,10,Blue,0.0006103516,notApplicable
2,0,12,9,Yellow,0.0007629395,notApplicable
2,-1,13,23,Blue,0.0006408691,notApplicable
3,51,20,14,Yellow,0.00112915,
3,50,6,4,Yellow,0.000579834,Incongruent
3,49,18,13,Yellow,0.0005493164,Congruent
3,48,10,12,Blue,0.0009155273,Congruent
3,47,14,13,Yellow,0.0006408691,Congruent
3,46,9,13,Blue,0.000579834,Congruent
3,45,16,18,Blue,0.0006713867,Incongruent
3,44,8,5,Yellow,0.0006408691,Congruent
3,43,13,14,Yellow,0.0008544922,Congruent
3,42,9,14,Blue,0.0008239746,Congruent
3,41,4,7,Blue,0.0007629395,Congruent
3,40,14,8,Yellow,0.000579834,Congruent
3,39,12,8,Yellow,0.0006713867,Congruent
3,38,18,11,Yellow,0.0006103516,Congruent
3,37,14,5,Yellow,0.0008544922,Incongruent
3,36,9,20,Blue,0.001037598,Congruent
3,35,7,5,Yellow,0.0005493164,Congruent
3,34,5,7,Blue,0.000793457,Congruent
3,33,10,12,Yellow,0.0008544922,Incongruent
3,32,10,6,Yellow,0.000793457,Congruent
3,31,13,16,Blue,0.0005493164,Congruent
3,30,7,4,Yellow,0.0006713867,Congruent
3,29,6,12,Blue,0.0006713867,Incongruent
3,28,8,11,Blue,0.0006103516,Congruent
3,27,14,19,Blue,0.0009155273,Congruent
3,26,13,9,Yellow,0.0006713867,Congruent
3,25,4,7,Blue,0.0006713867,Congruent
3,24,8,10,Yellow,0.0006103516,Congruent
3,23,10,12,Yellow,0.0006713867,Congruent
3,22,14,15,Yellow,0.0006103516,Congruent
3,21,16,20,Blue,0.0006103516,Congruent
3,20,13,16,Yellow,0.001037598,Congruent
3,19,15,18,Blue,0.0007324219,Incongruent
3,18,14,11,Yellow,0.000793457,Congruent
3,17,19,8,Yellow,0.0007324219,Congruent
3,16,14,8,Yellow,0.0009155273,Congruent
3,15,12,16,Blue,0.0006713867,Congruent
3,14,12,14,Yellow,0.001037598,Incongruent
3,13,14,18,Blue,0.0008544922,Congruent
3,12,12,16,Yellow,0.0009155273,Congruent
3,11,9,12,Blue,0.0006713867,Congruent
3,10,12,19,Yellow,0.0006713867,Congruent
3,9,5,7,Blue,0.0006103516,Incongruent
3,8,8,5,Yellow,0.0006713867,Incongruent
3,7,13,11,Yellow,0.0006713867,Congruent
3,6,21,13,Yellow,0.0007324219,Congruent
3,5,9,12,Yellow,0.0006103516,Congruent
3,4,9,8,Yellow,0.0006103516,Incongruent
3,3,16,10,Yellow,0.0007324219,Congruent
3,2,13,9,Yellow,0.0006103516,Congruent
3,1,13,17,Blue,0.0006713867,Congruent
3,0,13,8,Yellow,0.0004882813,Congruent
3,-1,12,18,Blue,0.0006103516,Congruent
