BlockNumber, TrialNumber, nrYellowDots, nrBlueDots, Response, ReactionTime, Congruency
1,51,15,10,Yellow,0.0001296997,notApplicable
1,50,8,12,Blue,3.433228E-05,notApplicable
1,49,3,7,Blue,0,notApplicable
1,48,14,8,Yellow,0,notApplicable
1,47,7,10,Blue,0,notApplicable
1,46,7,10,Blue,3.814697E-06,notApplicable
1,45,20,13,Yellow,3.814697E-06,notApplicable
1,44,5,9,Blue,0,notApplicable
1,43,18,21,Yellow,3.814697E-06,notApplicable
1,42,14,11,Yellow,0,notApplicable
1,41,16,19,Blue,7.629395E-06,notApplicable
1,40,10,10,Yellow,0,notApplicable
1,39,5,8,Blue,0,notApplicable
1,38,8,16,Blue,0,notApplicable
1,37,14,8,Yellow,7.629395E-06,notApplicable
1,36,8,5,Yellow,0,notApplicable
1,35,21,14,Yellow,7.629395E-06,notApplicable
1,34,12,7,Yellow,7.629395E-06,notApplicable
1,33,8,13,Blue,0,notApplicable
1,32,19,14,Yellow,0,notApplicable
1,31,18,13,Yellow,0,notApplicable
1,30,12,9,Blue,7.629395E-06,notApplicable
1,29,11,18,Blue,7.629395E-06,notApplicable
1,28,17,14,Yellow,0,notApplicable
1,27,7,10,Blue,0,notApplicable
1,26,16,13,Yellow,0,notApplicable
1,25,9,11,Blue,0,notApplicable
1,24,10,6,Yellow,7.629395E-06,notApplicable
1,23,4,8,Blue,0,notApplicable
1,22,10,7,Yellow,7.629395E-06,notApplicable
1,21,12,14,Blue,0,notApplicable
1,20,9,7,Yellow,0,notApplicable
1,19,13,17,Blue,0,notApplicable
1,18,9,6,Yellow,0,notApplicable
1,17,16,12,Yellow,0,notApplicable
1,16,12,15,Blue,0,notApplicable
1,15,8,12,Blue,0,notApplicable
1,14,13,14,Blue,1.525879E-05,notApplicable
1,13,15,12,Yellow,0,notApplicable
1,12,18,13,Yellow,0,notApplicable
1,11,7,5,Yellow,0,notApplicable
1,10,16,11,Yellow,0,notApplicable
1,9,3,5,Blue,0,notApplicable
1,8,10,15,Yellow,0,notApplicable
1,7,9,17,Blue,0,notApplicable
1,6,14,11,Blue,0,notApplicable
1,5,6,4,Yellow,0,notApplicable
1,4,14,18,Blue,0,notApplicable
1,3,12,16,Yellow,0,notApplicable
1,2,17,14,Yellow,0,notApplicable
1,1,11,18,Blue,1.525879E-05,notApplicable
1,0,21,16,Yellow,0,notApplicable
1,-1,15,12,Blue,0,notApplicable
2,51,4,6,Blue,0.002044678,notApplicable
2,50,7,5,Yellow,0.00100708,notApplicable
2,49,5,8,Blue,0.001251221,notApplicable
2,48,14,10,Yellow,0.000793457,notApplicable
2,47,13,19,Blue,0.0009918213,notApplicable
2,46,16,12,Yellow,0.0006713867,notApplicable
2,45,13,19,Blue,0.0009002686,notApplicable
2,44,12,16,Yellow,0.0006561279,notApplicable
2,43,8,7,Yellow,0.0007781982,notApplicable
2,42,11,7,Blue,0.0006561279,notApplicable
2,41,10,14,Blue,0.0009765625,notApplicable
2,40,13,14,Blue,0.0008087158,notApplicable
2,39,17,13,Yellow,0.001266479,notApplicable
2,38,7,5,Blue,0.0007476807,notApplicable
2,37,6,6,Yellow,0.000579834,notApplicable
2,36,8,5,Yellow,0.0007781982,notApplicable
2,35,15,12,Blue,0.0007171631,notApplicable
2,34,19,14,Yellow,0.0005493164,notApplicable
2,33,6,10,Blue,0.0007019043,notApplicable
2,32,10,15,Blue,0.0005187988,notApplicable
2,31,8,14,Yellow,0.0006408691,notApplicable
2,30,8,12,Yellow,0.0006713867,notApplicable
2,29,10,15,Blue,0.0007629395,notApplicable
2,28,11,8,Yellow,0.0006103516,notApplicable
2,27,7,5,Yellow,0.0008850098,notApplicable
2,26,11,16,Yellow,0.000579834,notApplicable
2,25,4,6,Blue,0.0006713867,notApplicable
2,24,11,8,Yellow,0.0007629395,notApplicable
2,23,11,18,Blue,0.0006713867,notApplicable
2,22,19,14,Yellow,0.0006713867,notApplicable
2,21,11,9,Blue,0.000579834,notApplicable
2,20,12,14,Yellow,0.0006408691,notApplicable
2,19,5,8,Yellow,0.0006713867,notApplicable
2,18,15,19,Yellow,0.001098633,notApplicable
2,17,14,18,Yellow,0.000579834,notApplicable
2,16,11,14,Blue,0.0006103516,notApplicable
2,15,10,7,Yellow,0.0006713867,notApplicable
2,14,15,14,Blue,0.0008544922,notApplicable
2,13,14,16,Yellow,0.0009765625,notApplicable
2,12,11,17,Blue,0.0007019043,notApplicable
2,11,21,13,Yellow,0.0007629395,notApplicable
2,10,8,10,Yellow,0.0008239746,notApplicable
2,9,14,15,Blue,0.0007019043,notApplicable
2,8,10,10,Blue,0.0006713867,notApplicable
2,7,10,8,Yellow,0.0005493164,notApplicable
2,6,5,4,Yellow,0.0006713867,notApplicable
2,5,4,6,Yellow,0.001159668,notApplicable
2,4,13,9,Yellow,0.0009460449,notApplicable
2,3,8,10,Blue,0.000793457,notApplicable
2,2,11,9,Yellow,0.0006408691,notApplicable
2,1,15,10,Yellow,0.0008850098,notApplicable
2,0,16,9,Blue,0.0006408691,notApplicable
2,-1,7,5,Blue,0.0007324219,notApplicable
3,51,11,7,Blue,0.0007324219,Congruent
3,50,6,14,Yellow,0.0008239746,Incongruent
3,49,19,14,Yellow,0.0006103516,Congruent
3,48,17,12,Yellow,0.0005493164,Congruent
3,47,7,8,Blue,0.0006408691,Congruent
3,46,8,11,Yellow,0.000579834,Incongruent
3,45,13,8,Yellow,0.000579834,Incongruent
3,44,17,13,Blue,0.0006713867,Congruent
3,43,11,17,Yellow,0.000793457,Incongruent
3,42,8,14,Blue,0.0006713867,Congruent
3,41,13,16,Yellow,0.0007324219,Congruent
3,40,6,5,Yellow,0.000579834,Incongruent
3,39,10,11,Yellow,0.0007324219,Congruent
3,38,8,6,Yellow,0.000793457,Congruent
3,37,12,20,Blue,0.0009460449,Congruent
3,36,22,12,Yellow,0.0007324219,Congruent
3,35,22,12,Blue,0.0005493164,Incongruent
3,34,13,12,Yellow,0.0007629395,Incongruent
3,33,7,6,Yellow,0.0005493164,Congruent
3,32,13,9,Yellow,0.0008544922,Congruent
3,31,10,11,Blue,0.0006103516,Congruent
3,30,12,21,Blue,0.0006713867,Congruent
3,29,11,13,Yellow,0.0007019043,Incongruent
3,28,12,18,Yellow,0.0004882813,Incongruent
3,27,7,9,Yellow,0.0006408691,Incongruent
3,26,11,14,Blue,0.0006103516,Congruent
3,25,12,10,Yellow,0.0005493164,Congruent
3,24,12,6,Yellow,0.0005187988,Congruent
3,23,18,12,Yellow,0.0006713867,Congruent
3,22,6,4,Yellow,0.0006103516,Congruent
3,21,8,14,Yellow,0.0006408691,Congruent
3,20,5,3,Yellow,0.0005187988,Congruent
3,19,19,16,Yellow,0.0006408691,Congruent
3,18,15,11,Yellow,0.0006408691,Congruent
3,17,16,9,Yellow,0.000579834,Congruent
3,16,7,10,Blue,0.0008239746,Congruent
3,15,20,17,Yellow,0.0005493164,Congruent
3,14,10,8,Yellow,0.0009765625,Congruent
3,13,9,14,Blue,0.0007019043,Congruent
3,12,4,6,Yellow,0.0006408691,Congruent
3,11,4,5,Blue,0.0006713867,Congruent
3,10,15,8,Yellow,0.001739502,Congruent
3,9,9,9,Yellow,0.000793457,Congruent
3,8,18,13,Yellow,0.0006713867,Congruent
3,7,12,8,Yellow,0.0009460449,Congruent
3,6,12,9,Yellow,0.0005187988,Congruent
3,5,15,15,Yellow,0.00100708,Congruent
3,4,11,8,Blue,0.001251221,Congruent
3,3,8,7,Yellow,0.0006103516,Congruent
3,2,12,20,Blue,0.000793457,Congruent
3,1,11,7,Yellow,0.0006103516,Congruent
3,0,18,11,Yellow,0.0006713867,Congruent
3,-1,13,8,Yellow,0.0006713867,Congruent
